Rate (cps): 1.3935817863502096
Error: 0.08796210238032909
3.278708
0.499332
1.395208
1.218416
0.363296
1.502292
0.003924
0.654572
0.004768
0.567868
0.369236
0.53664
0.278048
0.021704
0.3384
3.842848
0.393172
2.230012
0.758644
0.578196
1.644416
1.199976
0.219524
0.216912
0.498024
0.08824
0.001628
0.270624
0.956008
0.690592
1.43992
2.636116
0.5028
0.780592
0.27586
0.212556
0.504896
0.14402
0.046
0.482068
1.54278
0.939884
2.050188
0.30948
1.132756
0.001756
0.58448
0.124224
1.077248
0.44928
0.268116
1.330872
1.563088
4.406792
0.629656
0.689168
0.91134
0.747128
1.699636
1.106444
0.812428
2.060912
1.035436
0.46578
0.150316
1.59512
0.002252
0.373748
0.0684
0.843436
0.820348
0.341568
2.01756
1.207496
0.334652
0.01576
3.453092
0.597996
0.246364
0.054176
0.082624
1.481728
0.466164
0.504792
0.002044
0.441972
0.49888
0.01606
0.11486
1.417652
1.204044
0.635484
0.288416
0.003732
0.251884
1.363984
1.6972
0.341644
0.003256
0.92048
0.072004
0.320772
0.018784
0.27974
1.551444
0.614036
0.13382
0.425824
0.747228
3.433444
0.793212
0.00298
1.042232
0.270256
0.04494
1.393608
1.691452
0.284368
0.447092
0.550544
0.08538
0.002948
0.004376
0.034192
0.125888
0.670612
1.68298
0.01862
0.74494
0.99084
0.089584
0.206588
0.001928
0.00226
0.00168
0.091376
0.187396
0.46162
0.00238
0.697328
0.010664
0.913288
1.097628
0.120568
0.373352
0.386356
0.00226
0.00416
1.607856
1.891088
4.192312
0.65326
0.352288
0.388396
0.583852
0.265516
0.21274
0.605216
4.286876
0.329484
0.24548
0.194112
0.00298
3.317708
0.022756
0.554916
0.361344
0.212996
0.002252
0.00152
0.001648
0.473532
0.199172
0.260388
0.238788
0.659316
0.071748
2.925348
0.002068
0.0016
0.423704
0.786676
0.990324
0.262024
1.092512
0.814912
0.885788
0.003608
0.608948
0.868452
3.218324
0.145492
0.003272
0.003316
0.155204
0.30788
0.239988
1.37812
0.252528
0.08056
0.003112
0.185164
0.153784
0.354112
1.29034
0.08304
0.002488
0.039396
1.714748
0.640596
0.269236
0.110028
0.226084
0.002384
1.574852
0.004372
1.000144
1.51078
1.566212
0.85238
0.63396
0.848292
0.846592
0.017592
0.001544
0.206712
0.002728
0.002708
3.266068
0.673988
1.484012
1.058488
0.156912
0.02838
0.049096
0.248064
1.341084
1.976976
1.173564
1.635412
0.438768
0.395784
0.214576
1.62144
2.921704
1.3637
0.757252
0.085648
1.586996
0.996956
0.279904
